Folder: SuperCap

File: EISDemo1.DTA
EXPLAIN
TAG	EISPOT
TITLE	LABEL	Potentiostatic EIS	Test Identifier
DATE	LABEL	15-1-2024	Date
TIME	LABEL	12:24:56	Time
NOTES	NOTES	1	Notes...

PSTAT	PSTAT	REF3000-46118	Potentiostat
VDC	POTEN	0.00000E+000	T	DC Voltage (V)
FREQINIT	QUANT	1.00000E+004	Initial Freq. (Hz)
FREQFINAL	QUANT	2.00000E-001	Final Freq. (Hz)
PTSPERDEC	QUANT	1.00000E+001	Points/decade
VAC	QUANT	1.00000E+001	A Real Number
AREA	QUANT	1.00000E+000	Sample Area (cm^2)
SPEED	SELECTOR	1	Optimize for:
DRIFTCOR	SELECTOR	0	Drift Correction
THD	SELECTOR	0	THD
ZGUESS	QUANT	1.00000E+002	Estimated Z (ohms)
EOC	QUANT	0	Open Circuit (V)
SEQUENCER	TOGGLE	TRUE	Run as Sequence
PSTATMODEL	IQUANT	5	Pstat Model
PSTATSECTION	LABEL	REF3000-46118	Pstat Section
PSTATSERIALNO	LABEL	46118	Pstat Serial Number
CTRLMODE	IQUANT	1	Control Mode
ELECTROMETER	IQUANT	0	RE=0 or CS=1
IESTAB	IQUANT	0	I/E Stability
CASPEED	IQUANT	3	Control Amp Speed
CONVENTION	IQUANT	1	Current Convention
ICHRANGE	IQUANT	2	Ich Range
ICHRANGEMODE	TOGGLE	F	Ich Auto Range
ICHOFFSETENABLE	TOGGLE	T	Ich Offset Enable
ICHOFFSET	QUANT	0	Ich Offset (V)
ICHFILTER	IQUANT	3	Ich Filter
VCHRANGE	IQUANT	2	Vch Range
VCHRANGEMODE	TOGGLE	F	Vch Auto Range
VCHOFFSETENABLE	TOGGLE	T	Vch Offset Enable
VCHOFFSET	QUANT	0	Vch Offset (V)
VCHFILTER	IQUANT	3	Vch Filter
ACHRANGE	IQUANT	2	Ach Range
ACHOFFSETENABLE	TOGGLE	F	Ach Offset Enable
ACHOFFSET	QUANT	0	Ach Offset (V)
ACHFILTER	IQUANT	1	Ach Filter
IERANGELOWERLIMIT	IQUANT	2	I/E Range Lower Limit
IERANGEMODE	TOGGLE	F	I/E AutoRange
IERANGE	IQUANT	11	I/E Range
POSFEEDENABLE	TOGGLE	F	Positive Feedback IR Comp
POSFEEDRESISTANCE	QUANT	0	Positive Feedback Resistance (ohm)
ACHSELECT	IQUANT	4	Ach Select
SENSECABLEID	IQUANT	14	Sense Cable ID
PWRCABLEID	IQUANT	7	Power Cable ID
DCCALDATE	LABEL	1/11/2024	DC Calibration Date
ACCALDATE	LABEL	1/11/2024	AC Calibration Date
THERMOSELECT	IQUANT	1	Thermo Select
FRAMEWORKVERSION	LABEL	7.10.3	Framework Version
INSTRUMENTVERSION	LABEL	4.91	Instrument Version
COMMVERSION	LABEL	5.10	Communications Version
CPUPLDVERSION	LABEL	6.00	CPU PLD Version
CTRLPLDVERSION	LABEL	3.21	CTRL PLD Version
PSTATPLDVERSION	LABEL	0.00	PSTAT PLD Version
COMPLIANCEVOLTAGE	IQUANT	0	Compliance Voltage
ZCURVE	TABLE
	Pt	Time	Freq	Zreal	Zimag	Zsig	Zmod	Zphz	Idc	Vdc	IERange	Imod	Vmod	Temp
	#	s	Hz	ohm	ohm	V	ohm	°	A	V	#	A	V	°C
	0	3	10078.13	46.05072	-4.246279	1	46.24607	-5.268275	2.25687E-007	-7.024426E-005	9	0.0002389	0.0110477	-327.5937
	1	5	8015.625	46.60687	-4.404702	1	46.81455	-5.398849	2.527722E-007	-6.495055E-005	9	0.0002139	0.0100119	-327.5937
	2	6	6328.125	47.18879	-4.603483	1	47.41281	-5.571835	1.682531E-007	-7.172405E-005	9	0.000211	0.0100038	-327.5937
	3	8	5015.625	47.79772	-4.845371	1	48.04269	-5.788438	1.957806E-007	-6.918881E-005	9	0.0002081	0.0099995	-327.5937
	4	9	3984.375	48.40392	-5.141489	1	48.67622	-6.063251	2.115235E-007	-6.686692E-005	9	0.0002055	0.0100012	-327.5937
	5	11	3170.956	49.04595	-5.501417	1	49.35353	-6.400038	1.978637E-007	-7.076538E-005	9	0.0002026	0.0099992	-327.5937
	6	12	2527.573	49.74686	-5.913173	1	50.09706	-6.778672	1.754818E-007	-7.282943E-005	9	0.0001996	0.0100003	-327.5937
	7	14	1976.103	50.5861	-6.42883	1	50.99297	-7.242716	2.071114E-007	-7.007403E-005	9	0.0001962	0.0100032	-327.5937
	8	16	1577.524	51.44511	-6.967008	1	51.91473	-7.71242	2.64141E-007	-6.399428E-005	9	0.0001925	0.0099937	-327.5937
	9	17	1265.625	52.36722	-7.525494	1	52.90519	-8.177771	2.161846E-007	-6.809972E-005	9	0.0001891	0.0100063	-327.5937
	10	19	998.264	53.47548	-8.180207	1	54.09753	-8.697182	2.478184E-007	-6.777028E-005	9	0.0001848	0.0099949	-327.5937
	11	20	796.875	54.61269	-8.815538	1	55.31962	-9.169545	-4.697068E-007	-0.0001101	8	0.0001778	0.0098362	-327.5937
	12	22	627.7902	55.92475	-9.524	1	56.72992	-9.66476	-4.812046E-007	-0.0001114	8	0.0001762	0.0099967	-327.5937
	13	23	505.5147	57.20295	-10.17907	1	58.10155	-10.08998	-5.542582E-007	-4.605046E-005	8	0.0001703	0.0098583	-327.5937
	14	25	397.9953	58.6956	-10.93523	1	59.70555	-10.55345	-5.170747E-007	-4.878161E-005	8	0.0001699	0.0101191	-327.5937
	15	26	315.5048	60.2213	-11.7161	1	61.35041	-11.00941	-4.890769E-007	-5.051431E-005	8	0.0001638	0.0100314	-327.5937
	16	28	252.4038	61.76766	-12.52771	1	63.02529	-11.4652	-4.71918E-007	-5.018076E-005	8	0.000159	0.0100074	-327.5937
	17	29	198.6229	63.51122	-13.48669	1	64.92739	-11.98875	-5.465312E-007	-4.701659E-005	8	0.0001541	0.0099987	-327.5937
	18	31	158.3615	65.26318	-14.50169	1	66.85493	-12.52777	-5.388434E-007	-4.804105E-005	8	0.0001497	0.0100014	-327.5937
	19	32	125.558	67.17201	-15.66449	1	68.97431	-13.12676	-6.20411E-007	-4.792315E-005	8	0.000145	0.0099965	-327.5937
	20	34	100.4464	69.12939	-16.92509	1	71.17113	-13.75722	-3.931601E-007	-5.12186E-005	8	0.0001405	0.0099981	-327.5937
	21	35	79.00281	71.388	-18.44996	1	73.73363	-14.4908	-6.066916E-007	-4.693735E-005	8	0.0001356	0.0099981	-327.5937
	22	37	63.3446	73.62308	-20.03745	1	76.30109	-15.225	-3.253648E-007	-4.843331E-005	8	0.0001309	0.0099904	-327.5937
	23	39	50.22321	76.17082	-21.93793	1	79.26706	-16.06691	-3.538815E-007	-4.969342E-005	8	0.000126	0.0099834	-327.5937
	24	40	38.42213	79.37298	-24.40862	1	83.04126	-17.09361	-2.834181E-007	-5.090621E-005	8	0.0001197	0.0099365	-327.5937
	25	42	31.25	82.08132	-26.59798	1	86.28323	-17.95462	-4.576893E-007	-4.705905E-005	8	0.0001145	0.0098833	-327.5937
	26	43	24.93351	85.29907	-29.27985	1	90.18449	-18.94535	-4.513551E-007	-4.701209E-005	8	0.0001077	0.0097109	-327.5937
	27	45	19.86229	89.25014	-32.51981	1	94.99014	-20.02007	-3.123894E-006	1.575545E-005	8	0.0001127	0.0107063	-327.5937
	28	46	15.625	93.38363	-36.19383	1	100.1524	-21.18544	-2.745749E-006	2.142712E-005	8	0.0000999	0.0100058	-327.5937
	29	48	12.40079	97.8084	-40.21854	1	105.7545	-22.35232	-2.642295E-006	2.101242E-005	8	9.462902E-005	0.0100074	-327.5937
	30	49	9.93114	102.3741	-44.48737	1	111.6225	-23.4877	-2.092754E-006	1.885245E-005	8	8.963746E-005	0.0100055	-327.5937
	31	51	7.944915	107.6245	-49.41265	1	118.4257	-24.66085	-2.052248E-006	1.470882E-005	8	8.451405E-005	0.0100086	-327.5937
	32	53	6.317385	113.573	-55.03101	1	126.2032	-25.85218	-1.705061E-006	1.467835E-005	8	7.927383E-005	0.0100046	-327.5937
	33	55	5.008013	120.3979	-61.47795	1	135.1858	-27.0499	-1.606925E-006	1.562645E-005	8	7.403652E-005	0.0100087	-327.5937
	34	57	3.945707	128.2508	-68.81589	1	145.5468	-28.2168	-1.496264E-006	1.59127E-005	8	6.875438E-005	0.010007	-327.5937
	35	60	3.158693	136.3018	-76.28315	1	156.1964	-29.23414	-1.339871E-006	1.484815E-005	8	6.403921E-005	0.0100027	-327.5937
	36	63	2.504006	145.6783	-84.32684	1	168.3246	-30.06469	-1.265307E-006	1.730712E-005	8	5.75996E-005	0.0097156	-327.5937
	37	66	1.998082	154.7303	-93.3633	1	180.7157	-31.10653	-1.073456E-006	1.998163E-005	8	5.628805E-005	0.0101835	-327.5937
	38	70	1.584686	163.8407	-103.822	1	193.9659	-32.36147	-8.44872E-007	2.168769E-005	8	5.191966E-005	0.0100767	-327.5937
	39	75	1.266892	172.0975	-115.786	1	207.4222	-33.93239	-6.547798E-007	1.918475E-005	8	4.835505E-005	0.0100334	-327.5937
	40	80	0.999041	180.2448	-131.7077	1	223.2377	-36.15619	-6.029069E-007	1.797287E-005	8	4.485714E-005	0.0100158	-327.5937
	41	86	0.7923428	187.162	-151.5692	1	240.8378	-39.00155	-4.479429E-007	1.773737E-005	8	4.155253E-005	0.0100086	-327.5937
	42	93	0.6334459	193.2748	-176.3559	1	261.6421	-42.37925	-3.456486E-007	1.531905E-005	8	3.824056E-005	0.0100061	-327.5937
	43	101	0.5040323	199.3638	-209.0205	1	288.8521	-46.35458	-2.790683E-007	1.647884E-005	8	3.463898E-005	0.010006	-327.5937
	44	110	0.400641	205.6758	-251.0879	1	324.573	-50.67777	-2.445218E-007	1.512195E-005	8	3.082647E-005	0.0100057	-327.5937
	45	122	0.316723	212.7853	-306.0945	1	372.7887	-55.19444	-2.200332E-007	1.745739E-005	8	2.683667E-005	0.0100046	-327.5937
	46	136	0.2520161	220.7959	-373.8191	1	434.1561	-59.43181	-1.918666E-007	1.549923E-005	8	2.304402E-005	0.0100048	-327.5937
	47	153	0.2003205	230.4996	-459.2557	1	513.8539	-63.34801	-1.695908E-007	1.484369E-005	8	1.946988E-005	0.0100047	-327.5937

File: EISPOT_#2.DTA
EXPLAIN
TAG	EISPOT
TITLE	LABEL	Potentiostatic EIS	Test Identifier
DATE	LABEL	15-1-2024	Date
TIME	LABEL	12:30:25	Time
NOTES	NOTES	1	Notes...

PSTAT	PSTAT	REF3000-46118	Potentiostat
VDC	POTEN	0.00000E+000	T	DC Voltage (V)
FREQINIT	QUANT	1.00000E+004	Initial Freq. (Hz)
FREQFINAL	QUANT	2.00000E-001	Final Freq. (Hz)
PTSPERDEC	QUANT	1.00000E+001	Points/decade
VAC	QUANT	5.00000E+001	A Real Number
AREA	QUANT	1.00000E+000	Sample Area (cm^2)
SPEED	SELECTOR	1	Optimize for:
DRIFTCOR	SELECTOR	0	Drift Correction
THD	SELECTOR	0	THD
ZGUESS	QUANT	1.00000E+002	Estimated Z (ohms)
EOC	QUANT	0	Open Circuit (V)
SEQUENCER	TOGGLE	TRUE	Run as Sequence
PSTATMODEL	IQUANT	5	Pstat Model
PSTATSECTION	LABEL	REF3000-46118	Pstat Section
PSTATSERIALNO	LABEL	46118	Pstat Serial Number
CTRLMODE	IQUANT	1	Control Mode
ELECTROMETER	IQUANT	0	RE=0 or CS=1
IESTAB	IQUANT	0	I/E Stability
CASPEED	IQUANT	3	Control Amp Speed
CONVENTION	IQUANT	1	Current Convention
ICHRANGE	IQUANT	2	Ich Range
ICHRANGEMODE	TOGGLE	F	Ich Auto Range
ICHOFFSETENABLE	TOGGLE	T	Ich Offset Enable
ICHOFFSET	QUANT	0	Ich Offset (V)
ICHFILTER	IQUANT	3	Ich Filter
VCHRANGE	IQUANT	2	Vch Range
VCHRANGEMODE	TOGGLE	F	Vch Auto Range
VCHOFFSETENABLE	TOGGLE	T	Vch Offset Enable
VCHOFFSET	QUANT	0	Vch Offset (V)
VCHFILTER	IQUANT	3	Vch Filter
ACHRANGE	IQUANT	2	Ach Range
ACHOFFSETENABLE	TOGGLE	F	Ach Offset Enable
ACHOFFSET	QUANT	0	Ach Offset (V)
ACHFILTER	IQUANT	1	Ach Filter
IERANGELOWERLIMIT	IQUANT	2	I/E Range Lower Limit
IERANGEMODE	TOGGLE	F	I/E AutoRange
IERANGE	IQUANT	11	I/E Range
POSFEEDENABLE	TOGGLE	F	Positive Feedback IR Comp
POSFEEDRESISTANCE	QUANT	0	Positive Feedback Resistance (ohm)
ACHSELECT	IQUANT	4	Ach Select
SENSECABLEID	IQUANT	14	Sense Cable ID
PWRCABLEID	IQUANT	7	Power Cable ID
DCCALDATE	LABEL	1/11/2024	DC Calibration Date
ACCALDATE	LABEL	1/11/2024	AC Calibration Date
THERMOSELECT	IQUANT	1	Thermo Select
FRAMEWORKVERSION	LABEL	7.10.3	Framework Version
INSTRUMENTVERSION	LABEL	4.91	Instrument Version
COMMVERSION	LABEL	5.10	Communications Version
CPUPLDVERSION	LABEL	6.00	CPU PLD Version
CTRLPLDVERSION	LABEL	3.21	CTRL PLD Version
PSTATPLDVERSION	LABEL	0.00	PSTAT PLD Version
COMPLIANCEVOLTAGE	IQUANT	0	Compliance Voltage
ZCURVE	TABLE
	Pt	Time	Freq	Zreal	Zimag	Zsig	Zmod	Zphz	Idc	Vdc	IERange	Imod	Vmod	Temp
	#	s	Hz	ohm	ohm	V	ohm	°	A	V	#	A	V	°C
	0	3	10078.13	46.05041	-4.24633	1	46.24577	-5.268373	6.694163E-007	-6.211762E-005	9	0.001081	0.049992	-327.5937
	1	4	8015.625	46.60769	-4.402198	1	46.81512	-5.395704	5.151142E-007	-6.480512E-005	9	0.0010692	0.0500523	-327.5937
	2	6	6328.125	47.19343	-4.60256	1	47.41733	-5.570181	6.503478E-007	-6.416504E-005	9	0.0010549	0.0500189	-327.5937
	3	7	5015.625	47.78397	-4.844712	1	48.02893	-5.789311	6.717746E-007	-6.376609E-005	9	0.0010414	0.0500151	-327.5937
	4	9	3984.375	48.39375	-5.144974	1	48.66647	-6.068597	5.511101E-007	-6.653182E-005	9	0.0010274	0.0500011	-327.5937
	5	10	3170.956	49.03897	-5.498986	1	49.34632	-6.398135	6.23907E-007	-6.168033E-005	9	0.0010132	0.0499993	-327.5937
	6	12	2527.573	49.73731	-5.917858	1	50.08813	-6.785283	6.110922E-007	-6.850058E-005	9	0.0009982	0.0499956	-327.5937
	7	13	1976.103	50.57182	-6.439489	1	50.98016	-7.256623	5.701986E-007	-6.486755E-005	9	0.0009806	0.0499894	-327.5937
	8	15	1577.524	51.42743	-6.971956	1	51.89787	-7.720453	7.178837E-007	-6.418052E-005	9	0.0009634	0.0500005	-327.5937
	9	16	1265.625	52.35059	-7.536336	1	52.89027	-8.191959	6.652044E-007	-6.628962E-005	9	0.0009453	0.0499956	-327.5937
	10	18	998.264	53.4482	-8.176315	1	54.06998	-8.697477	4.752999E-007	-7.092065E-005	9	0.0009245	0.0499879	-327.5937
	11	19	796.875	54.59729	-8.818049	1	55.30481	-9.174656	5.430834E-007	-6.904732E-005	9	0.0009041	0.0499984	-327.5937
	12	21	627.7902	55.90314	-9.51851	1	56.7077	-9.66296	4.956928E-007	-6.843782E-005	9	0.0008816	0.0499928	-327.5937
	13	23	505.5147	57.17818	-10.17919	1	58.07719	-10.09437	-6.86091E-008	-3.01721E-005	9	0.0008517	0.0492771	-327.5937
	14	24	397.9953	58.67104	-10.93435	1	59.68124	-10.55694	-1.906988E-007	-2.454844E-005	9	0.0008498	0.0505894	-327.5937
	15	26	315.5048	60.19865	-11.71365	1	61.32771	-11.01121	6.516359E-008	-2.98918E-005	9	0.0008194	0.0501697	-327.5937
	16	27	252.4038	61.74523	-12.52575	1	63.00292	-11.46751	-3.892828E-007	-2.81941E-005	9	0.000795	0.0500303	-327.5937
	17	29	198.6229	63.49289	-13.4868	1	64.90948	-11.9922	2.149673E-007	-2.540072E-005	9	0.0007704	0.0499746	-327.5937
	18	30	158.3615	65.24101	-14.49979	1	66.83288	-12.5303	1.555966E-007	-2.688738E-005	9	0.0007481	0.0499778	-327.5937
	19	32	125.558	67.14602	-15.66159	1	68.94833	-13.12932	1.924211E-007	-3.106862E-005	9	0.0007251	0.049978	-327.5937
	20	33	100.4464	69.10115	-16.92011	1	71.14252	-13.75873	3.770274E-007	-2.845191E-005	9	0.0007024	0.049964	-327.5937
	21	35	79.00281	71.35435	-18.44742	1	73.70042	-14.49543	4.682697E-007	-3.048233E-005	9	0.000678	0.0499645	-327.5937
	22	36	63.3446	73.59807	-20.03844	1	76.27722	-15.23065	1.435095E-007	-2.527972E-005	9	0.0006547	0.049933	-327.5937
	23	38	50.22321	76.13813	-21.91864	1	79.23031	-16.06005	9.968699E-007	-2.507743E-005	9	0.0006296	0.049882	-327.5937
	24	39	38.42213	79.34594	-24.42338	1	83.01975	-17.10883	1.709968E-006	-2.715818E-005	9	0.0005983	0.049668	-327.5937
	25	41	31.25	82.05959	-26.61659	1	86.2683	-17.97083	2.279225E-006	-2.312177E-005	9	0.0005725	0.0493915	-327.5937
	26	42	24.93351	85.27365	-29.28494	1	90.16209	-18.95366	-3.196233E-007	-2.618512E-005	9	0.0005383	0.0485345	-327.5937
	27	44	19.86229	89.21247	-32.52879	1	94.95782	-20.03295	-1.401586E-005	3.910065E-005	9	0.000564	0.0535533	-327.5937
	28	45	15.625	93.35661	-36.21409	1	100.1345	-21.20184	-1.218582E-005	3.989421E-005	9	0.0004993	0.0500007	-327.5937
	29	47	12.40079	97.7795	-40.22283	1	105.7294	-22.36043	-1.169971E-005	3.408713E-005	9	0.0004729	0.0500002	-327.5937
	30	48	9.93114	102.3416	-44.50073	1	111.598	-23.50063	-8.792566E-006	3.715036E-005	9	0.0004481	0.0500062	-327.5937
	31	50	7.944915	107.5852	-49.41412	1	118.3906	-24.66943	-8.605444E-006	3.827847E-005	9	0.0004224	0.0500044	-327.5937
	32	52	6.317385	113.5265	-55.04493	1	126.1674	-25.86709	-6.866998E-006	3.731916E-005	9	0.0003963	0.0500019	-327.5937
	33	54	5.008013	120.3489	-61.49074	1	135.1479	-27.06418	-6.546268E-006	3.924389E-005	9	0.00037	0.050003	-327.5937
	34	56	3.945707	128.1973	-68.83285	1	145.5078	-28.23265	-5.933584E-006	3.515677E-005	9	0.0003437	0.0500037	-327.5937
	35	58	3.158693	136.2692	-76.31231	1	156.1821	-29.24933	-5.220065E-006	3.685991E-005	9	0.0003202	0.0500043	-327.5937
	36	61	2.504006	145.6372	-84.36301	1	168.3072	-30.08235	-4.859186E-006	4.034786E-005	9	0.0002879	0.0485481	-327.5937
	37	65	1.998082	154.6816	-93.3982	1	180.6921	-31.12397	-4.013956E-006	4.170794E-005	9	0.0002813	0.0508926	-327.5937
	38	69	1.584686	163.7798	-103.8571	1	193.9332	-32.37986	-2.814208E-006	4.048529E-005	9	0.0002596	0.0503664	-327.5937
	39	73	1.266892	172.0186	-115.8005	1	207.3647	-33.94788	-1.914822E-006	4.271616E-005	9	0.0002417	0.0501387	-327.5937
	40	79	0.999041	180.1502	-131.7272	1	223.173	-36.17456	-1.705641E-006	4.288286E-005	9	0.0002243	0.0500573	-327.5937
	41	85	0.7923428	187.0394	-151.5754	1	240.7464	-39.02106	-9.974832E-007	4.203373E-005	9	0.0002078	0.0500219	-327.5937
	42	91	0.6334459	193.2071	-176.3833	1	261.6105	-42.3937	-5.763188E-007	4.281943E-005	9	0.0001911	0.0500085	-327.5937
	43	99	0.5040323	199.2931	-208.986	1	288.7783	-46.36	-3.120185E-007	4.260716E-005	9	0.0001732	0.0500047	-327.5937
	44	109	0.400641	205.6909	-251.1002	1	324.5921	-50.67708	-2.850144E-007	1.999691E-005	8	0.0001537	0.0498935	-327.5937
	45	120	0.316723	212.8097	-306.0096	1	372.7329	-55.1839	-1.965925E-007	1.8987E-005	8	0.0001342	0.0500268	-327.5937
	46	134	0.2520161	220.8554	-373.561	1	433.9642	-59.40772	-1.474552E-007	1.995467E-005	8	0.0001153	0.0500237	-327.5937
	47	152	0.2003205	230.5815	-458.7069	1	513.4003	-63.31237	-1.117004E-007	1.980127E-005	8	0.0000974	0.0500199	-327.5937

File: EISPOT_#3.DTA
EXPLAIN
TAG	EISPOT
TITLE	LABEL	Potentiostatic EIS	Test Identifier
DATE	LABEL	15-1-2024	Date
TIME	LABEL	12:35:50	Time
NOTES	NOTES	1	Notes...

PSTAT	PSTAT	REF3000-46118	Potentiostat
VDC	POTEN	0.00000E+000	T	DC Voltage (V)
FREQINIT	QUANT	1.00000E+004	Initial Freq. (Hz)
FREQFINAL	QUANT	2.00000E-001	Final Freq. (Hz)
PTSPERDEC	QUANT	1.00000E+001	Points/decade
VAC	QUANT	2.50000E+002	A Real Number
AREA	QUANT	1.00000E+000	Sample Area (cm^2)
SPEED	SELECTOR	1	Optimize for:
DRIFTCOR	SELECTOR	0	Drift Correction
THD	SELECTOR	0	THD
ZGUESS	QUANT	1.00000E+002	Estimated Z (ohms)
EOC	QUANT	0	Open Circuit (V)
SEQUENCER	TOGGLE	TRUE	Run as Sequence
PSTATMODEL	IQUANT	5	Pstat Model
PSTATSECTION	LABEL	REF3000-46118	Pstat Section
PSTATSERIALNO	LABEL	46118	Pstat Serial Number
CTRLMODE	IQUANT	1	Control Mode
ELECTROMETER	IQUANT	0	RE=0 or CS=1
IESTAB	IQUANT	0	I/E Stability
CASPEED	IQUANT	3	Control Amp Speed
CONVENTION	IQUANT	1	Current Convention
ICHRANGE	IQUANT	2	Ich Range
ICHRANGEMODE	TOGGLE	F	Ich Auto Range
ICHOFFSETENABLE	TOGGLE	T	Ich Offset Enable
ICHOFFSET	QUANT	0	Ich Offset (V)
ICHFILTER	IQUANT	3	Ich Filter
VCHRANGE	IQUANT	2	Vch Range
VCHRANGEMODE	TOGGLE	F	Vch Auto Range
VCHOFFSETENABLE	TOGGLE	T	Vch Offset Enable
VCHOFFSET	QUANT	0	Vch Offset (V)
VCHFILTER	IQUANT	3	Vch Filter
ACHRANGE	IQUANT	2	Ach Range
ACHOFFSETENABLE	TOGGLE	F	Ach Offset Enable
ACHOFFSET	QUANT	0	Ach Offset (V)
ACHFILTER	IQUANT	1	Ach Filter
IERANGELOWERLIMIT	IQUANT	2	I/E Range Lower Limit
IERANGEMODE	TOGGLE	F	I/E AutoRange
IERANGE	IQUANT	11	I/E Range
POSFEEDENABLE	TOGGLE	F	Positive Feedback IR Comp
POSFEEDRESISTANCE	QUANT	0	Positive Feedback Resistance (ohm)
ACHSELECT	IQUANT	4	Ach Select
SENSECABLEID	IQUANT	14	Sense Cable ID
PWRCABLEID	IQUANT	7	Power Cable ID
DCCALDATE	LABEL	1/11/2024	DC Calibration Date
ACCALDATE	LABEL	1/11/2024	AC Calibration Date
THERMOSELECT	IQUANT	1	Thermo Select
FRAMEWORKVERSION	LABEL	7.10.3	Framework Version
INSTRUMENTVERSION	LABEL	4.91	Instrument Version
COMMVERSION	LABEL	5.10	Communications Version
CPUPLDVERSION	LABEL	6.00	CPU PLD Version
CTRLPLDVERSION	LABEL	3.21	CTRL PLD Version
PSTATPLDVERSION	LABEL	0.00	PSTAT PLD Version
COMPLIANCEVOLTAGE	IQUANT	0	Compliance Voltage
ZCURVE	TABLE
	Pt	Time	Freq	Zreal	Zimag	Zsig	Zmod	Zphz	Idc	Vdc	IERange	Imod	Vmod	Temp
	#	s	Hz	ohm	ohm	V	ohm	°	A	V	#	A	V	°C
	0	3	10078.13	46.03298	-4.231426	1	46.22705	-5.251962	2.83908E-006	-0.0002269	10	0.0054074	0.2499552	-327.5937
	1	5	8015.625	46.59147	-4.390167	1	46.79785	-5.382907	2.693345E-006	-0.0002278	10	0.0053452	0.2501351	-327.5937
	2	6	6328.125	47.17373	-4.590327	1	47.39654	-5.557775	2.404984E-006	-0.0002215	10	0.0052762	0.2500685	-327.5937
	3	8	5015.625	47.7622	-4.834354	1	48.00623	-5.779633	3.103978E-006	-0.0002362	10	0.0052088	0.2500536	-327.5937
	4	9	3984.375	48.37114	-5.12951	1	48.64236	-6.053299	2.906513E-006	-0.000231	10	0.0051397	0.2500065	-327.5937
	5	11	3170.956	49.01692	-5.486357	1	49.323	-6.386411	2.500617E-006	-0.0002244	10	0.005069	0.2500188	-327.5937
	6	12	2527.573	49.70774	-5.90077	1	50.05676	-6.769858	3.044628E-006	-0.0002286	10	0.0049947	0.2500162	-327.5937
	7	14	1976.103	50.53524	-6.418141	1	50.94118	-7.238001	2.515741E-006	-0.0002289	10	0.0049067	0.2499508	-327.5937
	8	16	1577.524	51.38321	-6.947693	1	51.85079	-7.700449	2.073961E-006	-0.0002267	10	0.0048216	0.2500039	-327.5937
	9	17	1265.625	52.2921	-7.507002	1	52.82821	-8.169508	2.807662E-006	-0.0002387	10	0.0047321	0.24999	-327.5937
	10	19	998.264	53.38177	-8.145718	1	53.99969	-8.676044	2.156026E-006	-0.0002352	10	0.0046294	0.2499857	-327.5937
	11	20	796.875	54.50667	-8.78686	1	55.21038	-9.157697	2.807341E-006	-0.0002339	10	0.0045275	0.2499622	-327.5937
	12	22	627.7902	55.80302	-9.483559	1	56.60314	-9.6451	2.220968E-006	-0.0002462	10	0.004417	0.2500141	-327.5937
	13	23	505.5147	57.06104	-10.14669	1	57.95617	-10.08304	7.503777E-007	-0.0002524	10	0.0042681	0.2464276	-327.5937
	14	25	397.9953	58.53578	-10.90719	1	59.5433	-10.55509	6.328846E-007	-0.0002576	10	0.0042577	0.2528732	-327.5937
	15	26	315.5048	60.05314	-11.68862	1	61.18009	-11.01423	1.799257E-006	-0.0002552	10	0.004107	0.2508511	-327.5937
	16	28	252.4038	61.59047	-12.50254	1	62.84663	-11.47482	4.852664E-007	-0.0002562	10	0.0039843	0.2501317	-327.5937
	17	29	198.6229	63.32913	-13.46434	1	64.74464	-12.00287	1.38886E-006	-0.0002608	10	0.0038629	0.2499348	-327.5937
	18	31	158.3615	65.0678	-14.47549	1	66.65852	-12.54221	1.087894E-006	-0.0002467	10	0.0037502	0.2498712	-327.5937
	19	32	125.558	66.9585	-15.63393	1	68.75944	-13.14237	1.702475E-006	-0.0002574	10	0.0036346	0.2498472	-327.5937
	20	34	100.4464	68.90173	-16.88795	1	70.94118	-13.77181	3.01022E-006	-0.0002516	10	0.003523	0.2498787	-327.5937
	21	35	79.00281	71.14365	-18.41019	1	73.48711	-14.50845	1.305525E-006	-0.0002526	10	0.0033995	0.2497887	-327.5937
	22	37	63.3446	73.36513	-19.98981	1	76.03969	-15.24141	-3.78141E-006	-0.0002529	10	0.0032836	0.2496696	-327.5937
	23	39	50.22321	75.88806	-21.86604	1	78.97545	-16.07357	-1.660102E-006	-0.0002528	10	0.0031574	0.2493484	-327.5937
	24	40	38.42213	79.0788	-24.34541	1	82.74149	-17.11164	-5.907646E-006	-0.0002585	10	0.0030011	0.248313	-327.5937
	25	42	31.25	81.77258	-26.5302	1	85.96864	-17.97507	-2.466149E-006	-0.0002685	10	0.0028723	0.2469271	-327.5937
	26	43	24.93351	84.98651	-29.20454	1	89.86441	-18.96463	-7.21881E-006	-0.0002538	10	0.0027013	0.2427436	-327.5937
	27	45	19.86229	88.84423	-32.40994	1	94.57114	-20.04172	-6.936857E-005	-0.0001757	10	0.0028321	0.2678362	-327.5937
	28	46	15.625	92.99736	-36.06265	1	99.7448	-21.19537	-6.124926E-005	-0.0001786	10	0.0025062	0.2499788	-327.5937
	29	48	12.40079	97.3779	-40.04266	1	105.2894	-22.35291	-5.825243E-005	-0.0001921	10	0.0023745	0.2500142	-327.5937
	30	49	9.93114	101.877	-44.27154	1	111.0805	-23.48779	-4.406839E-005	-0.0001736	10	0.0022506	0.2499944	-327.5937
	31	51	7.944915	107.0536	-49.13109	1	117.7894	-24.65224	-4.308043E-005	-0.0001877	10	0.0021224	0.249997	-327.5937
	32	52	6.317385	112.9387	-54.69197	1	125.4845	-25.83917	-3.457988E-005	-0.0001796	10	0.0019923	0.2500052	-327.5937
	33	55	5.008013	119.658	-61.03487	1	134.3254	-27.0251	-3.306575E-005	-0.0001844	10	0.0018612	0.2500007	-327.5937
	34	57	3.945707	127.3795	-68.25578	1	144.5144	-28.18444	-2.95868E-005	-0.0001811	10	0.00173	0.250003	-327.5937
	35	59	3.158693	135.3042	-75.58894	1	154.9868	-29.19031	-2.620132E-005	-0.0001825	9	0.001612	0.2498429	-327.5937
	36	62	2.504006	144.5284	-83.46262	1	166.8966	-30.00568	-2.451837E-005	-0.000173	9	0.0014514	0.2427393	-327.5937
	37	66	1.998082	153.3673	-92.25542	1	178.9765	-31.02828	-2.027986E-005	-0.0001735	9	0.0014202	0.2544645	-327.5937
	38	70	1.584686	162.3872	-102.4999	1	192.0308	-32.2604	-1.450205E-005	-0.000172	9	0.0013106	0.2518331	-327.5937
	39	74	1.266892	170.5839	-114.1242	1	205.2394	-33.78335	-1.005181E-005	-0.0001743	9	0.001221	0.2506943	-327.5937
	40	80	0.999041	178.7715	-129.5074	1	220.752	-35.92069	-9.063117E-006	-0.0001757	9	0.0011336	0.2502852	-327.5937
	41	85	0.7923428	185.8664	-148.494	1	237.9008	-38.62236	-5.53671E-006	-0.0001725	9	0.0010512	0.2501046	-327.5937
	42	92	0.6334459	192.398	-171.9447	1	258.0348	-41.78693	-3.359165E-006	-0.0001729	9	0.000969	0.2500453	-327.5937
	43	100	0.5040323	199.1524	-202.4661	1	283.9968	-45.47272	-2.10043E-006	-0.0001731	9	0.0008803	0.2500235	-327.5937
	44	109	0.400641	206.4938	-241.3819	1	317.6554	-49.45417	-1.343858E-006	-0.0001753	9	0.0007871	0.2500193	-327.5937
	45	121	0.316723	215.1097	-291.7207	1	362.4543	-53.59559	-9.860837E-007	-0.0001761	9	0.0006898	0.250014	-327.5937
	46	135	0.2520161	225.1134	-353.116	1	418.7684	-57.48227	-6.773103E-007	-0.0001752	9	0.000597	0.2500161	-327.5937
	47	153	0.2003205	237.4118	-429.947	1	491.1403	-61.09302	-5.16588E-007	-0.0001745	9	0.000509	0.2500131	-327.5937