Folder: SuperCap/400 and 500/400 and 500

File: EISPOT2_#2.DTA
EXPLAIN
TAG	EISPOT
TITLE	LABEL	Potentiostatic EIS	Test Identifier
DATE	LABEL	15-1-2024	Date
TIME	LABEL	12:53:47	Time
NOTES	NOTES	1	Notes...

PSTAT	PSTAT	REF3000-46118	Potentiostat
VDC	POTEN	0.00000E+000	T	DC Voltage (V)
FREQINIT	QUANT	1.00000E+004	Initial Freq. (Hz)
FREQFINAL	QUANT	2.00000E-001	Final Freq. (Hz)
PTSPERDEC	QUANT	1.00000E+001	Points/decade
VAC	QUANT	5.00000E+002	A Real Number
AREA	QUANT	1.00000E+000	Sample Area (cm^2)
SPEED	SELECTOR	1	Optimize for:
DRIFTCOR	SELECTOR	0	Drift Correction
THD	SELECTOR	0	THD
ZGUESS	QUANT	1.00000E+002	Estimated Z (ohms)
EOC	QUANT	0	Open Circuit (V)
SEQUENCER	TOGGLE	TRUE	Run as Sequence
PSTATMODEL	IQUANT	5	Pstat Model
PSTATSECTION	LABEL	REF3000-46118	Pstat Section
PSTATSERIALNO	LABEL	46118	Pstat Serial Number
CTRLMODE	IQUANT	1	Control Mode
ELECTROMETER	IQUANT	0	RE=0 or CS=1
IESTAB	IQUANT	0	I/E Stability
CASPEED	IQUANT	3	Control Amp Speed
CONVENTION	IQUANT	1	Current Convention
ICHRANGE	IQUANT	2	Ich Range
ICHRANGEMODE	TOGGLE	F	Ich Auto Range
ICHOFFSETENABLE	TOGGLE	T	Ich Offset Enable
ICHOFFSET	QUANT	0	Ich Offset (V)
ICHFILTER	IQUANT	3	Ich Filter
VCHRANGE	IQUANT	2	Vch Range
VCHRANGEMODE	TOGGLE	F	Vch Auto Range
VCHOFFSETENABLE	TOGGLE	T	Vch Offset Enable
VCHOFFSET	QUANT	0	Vch Offset (V)
VCHFILTER	IQUANT	3	Vch Filter
ACHRANGE	IQUANT	2	Ach Range
ACHOFFSETENABLE	TOGGLE	F	Ach Offset Enable
ACHOFFSET	QUANT	0	Ach Offset (V)
ACHFILTER	IQUANT	1	Ach Filter
IERANGELOWERLIMIT	IQUANT	2	I/E Range Lower Limit
IERANGEMODE	TOGGLE	F	I/E AutoRange
IERANGE	IQUANT	11	I/E Range
POSFEEDENABLE	TOGGLE	F	Positive Feedback IR Comp
POSFEEDRESISTANCE	QUANT	0	Positive Feedback Resistance (ohm)
ACHSELECT	IQUANT	4	Ach Select
SENSECABLEID	IQUANT	14	Sense Cable ID
PWRCABLEID	IQUANT	7	Power Cable ID
DCCALDATE	LABEL	1/11/2024	DC Calibration Date
ACCALDATE	LABEL	1/11/2024	AC Calibration Date
THERMOSELECT	IQUANT	1	Thermo Select
FRAMEWORKVERSION	LABEL	7.10.3	Framework Version
INSTRUMENTVERSION	LABEL	4.91	Instrument Version
COMMVERSION	LABEL	5.10	Communications Version
CPUPLDVERSION	LABEL	6.00	CPU PLD Version
CTRLPLDVERSION	LABEL	3.21	CTRL PLD Version
PSTATPLDVERSION	LABEL	0.00	PSTAT PLD Version
COMPLIANCEVOLTAGE	IQUANT	0	Compliance Voltage
ZCURVE	TABLE
	Pt	Time	Freq	Zreal	Zimag	Zsig	Zmod	Zphz	Idc	Vdc	IERange	Imod	Vmod	Temp
	#	s	Hz	ohm	ohm	V	ohm	°	A	V	#	A	V	°C
	0	2	10078.13	45.90556	-4.201169	1	46.0974	-5.22901	2.934408E-006	-0.0002362	10	0.0108458	0.4999397	-327.5937
	1	4	8015.625	46.46008	-4.350254	1	46.6633	-5.34925	2.620429E-006	-0.0002249	10	0.0107218	0.5003002	-327.5937
	2	5	6328.125	47.03598	-4.536229	1	47.25422	-5.508664	2.29635E-006	-0.0002327	10	0.0105827	0.5000655	-327.5937
	3	7	5015.625	47.61807	-4.76498	1	47.85588	-5.714374	3.122688E-006	-0.0002172	10	0.0104511	0.5001395	-327.5937
	4	8	3984.375	48.2155	-5.043207	1	48.47853	-5.971265	2.73958E-006	-0.0002178	10	0.0103149	0.5000489	-327.5937
	5	10	3170.956	48.83993	-5.374946	1	49.1348	-6.280259	2.209315E-006	-0.0002222	10	0.0101751	0.4999508	-327.5937
	6	11	2527.573	49.51011	-5.764868	1	49.8446	-6.64151	2.76354E-006	-0.0002266	10	0.0100325	0.5000653	-327.5937
	7	13	1976.103	50.30617	-6.254539	1	50.69349	-7.087186	2.154149E-006	-0.000217	10	0.009862	0.4999399	-327.5937
	8	14	1577.524	51.11318	-6.755144	1	51.55763	-7.528609	2.454311E-006	-0.0002244	10	0.0096989	0.5000529	-327.5937
	9	16	1265.625	51.97746	-7.29318	1	52.48663	-7.98727	3.40421E-006	-0.0002233	10	0.0095244	0.4999022	-327.5937
	10	18	998.264	53.00331	-7.916624	1	53.59126	-8.494953	2.960618E-006	-0.0002277	10	0.0093305	0.5000308	-327.5937
	11	19	796.875	54.07099	-8.54233	1	54.74161	-8.977594	2.358764E-006	-0.0002258	10	0.0091332	0.4999679	-327.5937
	12	21	627.7902	55.29574	-9.239697	1	56.06239	-9.486254	3.587767E-006	-0.0002278	10	0.0089176	0.4999411	-327.5937
	13	22	505.5147	56.49277	-9.91025	1	57.35544	-9.94988	1.320295E-006	-0.0002447	10	0.0086244	0.4927819	-327.5937
	14	24	397.9953	57.89901	-10.67653	1	58.87515	-10.44793	3.295732E-006	-0.00025	10	0.0086128	0.5057901	-327.5937
	15	25	315.5048	59.36903	-11.47278	1	60.4674	-10.93732	1.803904E-006	-0.0002455	10	0.0083119	0.501764	-327.5937
	16	27	252.4038	60.85458	-12.29505	1	62.0842	-11.42227	1.076114E-007	-0.0002533	10	0.0080653	0.5001837	-327.5937
	17	28	198.6229	62.54213	-13.25815	1	63.93196	-11.9688	4.417256E-006	-0.0002375	10	0.0078249	0.4999197	-327.5937
	18	30	158.3615	64.23299	-14.264	1	65.79771	-12.52031	3.811569E-006	-0.0002515	10	0.0075992	0.4997941	-327.5937
	19	31	125.558	66.0752	-15.41204	1	67.84883	-13.1295	3.848247E-006	-0.0002637	10	0.0073656	0.4996105	-327.5937
	20	33	100.4464	67.95866	-16.64748	1	69.96797	-13.7644	7.731811E-006	-0.0002575	10	0.0071429	0.4996894	-327.5937
	21	34	79.00281	70.13255	-18.14302	1	72.44131	-14.50422	-4.476373E-006	-0.000248	10	0.0068978	0.4996319	-327.5937
	22	36	63.3446	72.28061	-19.69691	1	74.91631	-15.24332	-8.376635E-006	-0.0002471	10	0.0066663	0.499381	-327.5937
	23	37	50.22321	74.72356	-21.53972	1	77.76613	-16.08009	-3.201072E-006	-0.0002589	10	0.0064136	0.4987401	-327.5937
	24	39	38.42213	77.81532	-23.97553	1	81.42512	-17.12449	-3.78305E-006	-0.0002431	10	0.0060983	0.4965442	-327.5937
	25	40	31.25	80.42924	-26.10176	1	84.55865	-17.97984	2.302651E-006	-0.0002307	10	0.0058406	0.4938619	-327.5937
	26	42	24.93351	83.55968	-28.7249	1	88.35916	-18.97118	8.821085E-006	-0.0002506	10	0.0054925	0.4853036	-327.5937
	27	43	19.86229	87.18099	-31.76559	1	92.78781	-20.01991	-0.0001444	-0.0002018	10	0.0057745	0.535803	-327.5937
	28	45	15.625	91.31812	-35.38168	1	97.9329	-21.17912	-0.0001254	-0.0001924	10	0.0051056	0.5000019	-327.5937
	29	46	12.40079	95.5354	-39.21526	1	103.2707	-22.31712	-0.0001197	-0.0001888	10	0.0048416	0.4999965	-327.5937
	30	48	9.93114	99.8275	-43.27089	1	108.8021	-23.43465	-9.069638E-005	-0.0001885	10	0.0045956	0.5000064	-327.5937
	31	50	7.944915	104.7853	-47.91891	1	115.2223	-24.57489	-8.891163E-005	-0.0001905	10	0.0043395	0.5000045	-327.5937
	32	51	6.317385	110.3607	-53.207	1	122.5172	-25.7396	-7.054936E-005	-0.0001882	10	0.0040811	0.5000059	-327.5937
	33	53	5.008013	116.7595	-59.23574	1	130.9262	-26.90009	-6.700486E-005	-0.0001912	10	0.0038189	0.4999984	-327.5937
	34	56	3.945707	124.0988	-66.07803	1	140.5945	-28.03365	-6.071074E-005	-0.0001938	10	0.0035563	0.5000023	-327.5937
	35	58	3.158693	131.6383	-73.01994	1	150.5342	-29.0172	-5.325363E-005	-0.0001906	10	0.0033215	0.5000032	-327.5937
	36	61	2.504006	140.3859	-80.48241	1	161.8197	-29.8254	-5.099983E-005	-0.000185	10	0.0029936	0.4854254	-327.5937
	37	65	1.998082	148.6534	-88.59924	1	173.054	-30.79545	-4.251057E-005	-0.0001844	10	0.0029375	0.5089154	-327.5937
	38	69	1.584686	157.456	-98.2582	1	185.5992	-31.96566	-3.170599E-005	-0.0001831	10	0.002712	0.5036526	-327.5937
	39	73	1.266892	165.5551	-109.0438	1	198.2399	-33.37112	-2.191452E-005	-0.0001838	10	0.0025282	0.5013679	-327.5937
	40	79	0.999041	173.8822	-123.0824	1	213.0359	-35.29274	-2.108651E-005	-0.0001796	10	0.0023491	0.5005498	-327.5937
	41	84	0.7923428	181.3853	-140.0399	1	229.1545	-37.67021	-1.400628E-005	-0.0001832	10	0.0021825	0.5001932	-327.5937
	42	91	0.6334459	188.6113	-160.5344	1	247.6802	-40.4024	-9.099112E-006	-0.0001823	10	0.0020189	0.500069	-327.5937
	43	99	0.5040323	196.4459	-186.6892	1	271.0052	-43.54126	-6.254133E-006	-0.0001881	10	0.001845	0.5000281	-327.5937
	44	108	0.400641	205.1792	-219.354	1	300.3576	-46.91235	-3.840661E-006	-0.000186	9	0.0016643	0.4998871	-327.5937
	45	120	0.316723	215.6327	-260.9793	1	338.5375	-50.43497	-2.595502E-006	-0.0001869	9	0.001477	0.5000334	-327.5937
	46	134	0.2520161	227.686	-311.1288	1	385.5412	-53.8031	-1.698385E-006	-0.0001914	9	0.0012969	0.5000309	-327.5937
	47	152	0.2003205	242.1196	-373.3787	1	445.0096	-57.03837	-1.128637E-006	-0.0001871	9	0.0011236	0.5000309	-327.5937

File: EISPOT2_#3.DTA
EXPLAIN
TAG	EISPOT
TITLE	LABEL	Potentiostatic EIS	Test Identifier
DATE	LABEL	15-1-2024	Date
TIME	LABEL	12:59:13	Time
NOTES	NOTES	1	Notes...

PSTAT	PSTAT	REF3000-46118	Potentiostat
VDC	POTEN	0.00000E+000	T	DC Voltage (V)
FREQINIT	QUANT	1.00000E+004	Initial Freq. (Hz)
FREQFINAL	QUANT	2.00000E-001	Final Freq. (Hz)
PTSPERDEC	QUANT	1.00000E+001	Points/decade
VAC	QUANT	6.00000E+002	A Real Number
AREA	QUANT	1.00000E+000	Sample Area (cm^2)
SPEED	SELECTOR	1	Optimize for:
DRIFTCOR	SELECTOR	0	Drift Correction
THD	SELECTOR	0	THD
ZGUESS	QUANT	1.00000E+002	Estimated Z (ohms)
EOC	QUANT	0	Open Circuit (V)
SEQUENCER	TOGGLE	TRUE	Run as Sequence
PSTATMODEL	IQUANT	5	Pstat Model
PSTATSECTION	LABEL	REF3000-46118	Pstat Section
PSTATSERIALNO	LABEL	46118	Pstat Serial Number
CTRLMODE	IQUANT	1	Control Mode
ELECTROMETER	IQUANT	0	RE=0 or CS=1
IESTAB	IQUANT	0	I/E Stability
CASPEED	IQUANT	3	Control Amp Speed
CONVENTION	IQUANT	1	Current Convention
ICHRANGE	IQUANT	2	Ich Range
ICHRANGEMODE	TOGGLE	F	Ich Auto Range
ICHOFFSETENABLE	TOGGLE	T	Ich Offset Enable
ICHOFFSET	QUANT	0	Ich Offset (V)
ICHFILTER	IQUANT	3	Ich Filter
VCHRANGE	IQUANT	2	Vch Range
VCHRANGEMODE	TOGGLE	F	Vch Auto Range
VCHOFFSETENABLE	TOGGLE	T	Vch Offset Enable
VCHOFFSET	QUANT	0	Vch Offset (V)
VCHFILTER	IQUANT	3	Vch Filter
ACHRANGE	IQUANT	2	Ach Range
ACHOFFSETENABLE	TOGGLE	F	Ach Offset Enable
ACHOFFSET	QUANT	0	Ach Offset (V)
ACHFILTER	IQUANT	1	Ach Filter
IERANGELOWERLIMIT	IQUANT	2	I/E Range Lower Limit
IERANGEMODE	TOGGLE	F	I/E AutoRange
IERANGE	IQUANT	11	I/E Range
POSFEEDENABLE	TOGGLE	F	Positive Feedback IR Comp
POSFEEDRESISTANCE	QUANT	0	Positive Feedback Resistance (ohm)
ACHSELECT	IQUANT	4	Ach Select
SENSECABLEID	IQUANT	14	Sense Cable ID
PWRCABLEID	IQUANT	7	Power Cable ID
DCCALDATE	LABEL	1/11/2024	DC Calibration Date
ACCALDATE	LABEL	1/11/2024	AC Calibration Date
THERMOSELECT	IQUANT	1	Thermo Select
FRAMEWORKVERSION	LABEL	7.10.3	Framework Version
INSTRUMENTVERSION	LABEL	4.91	Instrument Version
COMMVERSION	LABEL	5.10	Communications Version
CPUPLDVERSION	LABEL	6.00	CPU PLD Version
CTRLPLDVERSION	LABEL	3.21	CTRL PLD Version
PSTATPLDVERSION	LABEL	0.00	PSTAT PLD Version
COMPLIANCEVOLTAGE	IQUANT	0	Compliance Voltage
ZCURVE	TABLE
	Pt	Time	Freq	Zreal	Zimag	Zsig	Zmod	Zphz	Idc	Vdc	IERange	Imod	Vmod	Temp
	#	s	Hz	ohm	ohm	V	ohm	°	A	V	#	A	V	°C
	0	2	10078.13	45.95721	-4.153991	1	46.14456	-5.164829	2.632545E-006	-0.0002247	10	0.0130038	0.6000266	-327.5937
	1	4	8015.625	46.50748	-4.292976	1	46.70519	-5.27387	2.276101E-006	-0.0002244	10	0.0128504	0.6001607	-327.5937
	2	5	6328.125	47.0802	-4.466368	1	47.29158	-5.419273	2.942266E-006	-0.0002268	10	0.0126914	0.6001832	-327.5937
	3	7	5015.625	47.65253	-4.678723	1	47.88167	-5.607564	2.59692E-006	-0.0002305	10	0.0125336	0.6001223	-327.5937
	4	9	3984.375	48.23844	-4.936713	1	48.49039	-5.843297	2.053494E-006	-0.0002236	10	0.0123742	0.6000264	-327.5937
	5	10	3170.956	48.84708	-5.247842	1	49.12817	-6.132	2.634479E-006	-0.000229	10	0.0122139	0.6000444	-327.5937
	6	12	2527.573	49.49567	-5.615374	1	49.81319	-6.472634	2.550223E-006	-0.0002288	10	0.0120461	0.6000538	-327.5937
	7	13	1976.103	50.26395	-6.079715	1	50.63031	-6.896751	2.222263E-006	-0.0002201	10	0.0118486	0.5998979	-327.5937
	8	15	1577.524	51.03395	-6.559908	1	51.45383	-7.32464	2.410721E-006	-0.0002294	10	0.0116614	0.6000206	-327.5937
	9	16	1265.625	51.85881	-7.077901	1	52.33959	-7.77194	3.528461E-006	-0.0002262	10	0.0114638	0.6000095	-327.5937
	10	18	998.264	52.83628	-7.686399	1	53.39244	-8.277083	2.424262E-006	-0.0002388	10	0.011237	0.5999699	-327.5937
	11	19	796.875	53.8509	-8.308811	1	54.48812	-8.771165	2.435991E-006	-0.0002355	10	0.0110105	0.5999403	-327.5937
	12	21	627.7902	55.02218	-9.00176	1	55.75367	-9.291412	2.630973E-006	-0.0002323	10	0.0107627	0.6000625	-327.5937
	13	22	505.5147	56.16879	-9.6771	1	56.99631	-9.7753	1.593009E-006	-0.0002511	10	0.0104139	0.5913087	-327.5937
	14	24	397.9953	57.51934	-10.4503	1	58.46096	-10.29736	1.587818E-006	-0.0002466	10	0.0104093	0.6069913	-327.5937
	15	25	315.5048	58.93753	-11.26141	1	60.00377	-10.81733	-4.205795E-007	-0.0002491	10	0.010048	0.6019157	-327.5937
	16	27	252.4038	60.38002	-12.09594	1	61.57969	-11.32812	4.328995E-006	-0.0002453	10	0.0097595	0.6003334	-327.5937
	17	28	198.6229	62.02349	-13.0694	1	63.38551	-11.89911	1.597578E-006	-0.0002533	10	0.0094702	0.5998667	-327.5937
	18	30	158.3615	63.67067	-14.08018	1	65.20894	-12.46974	-2.684217E-006	-0.0002482	10	0.0092005	0.5996971	-327.5937
	19	31	125.558	65.46473	-15.23061	1	67.21311	-13.09708	3.865382E-006	-0.0002478	10	0.0089241	0.5996518	-327.5937
	20	33	100.4464	67.30538	-16.46477	1	69.28999	-13.74618	-6.406779E-006	-0.0002399	10	0.0086548	0.5995889	-327.5937
	21	34	79.00281	69.42865	-17.95357	1	71.7124	-14.49853	2.755962E-006	-0.0002542	10	0.0083609	0.5995174	-327.5937
	22	36	63.3446	71.52711	-19.4963	1	74.13658	-15.24685	1.928791E-006	-0.0002424	10	0.008083	0.5992064	-327.5937
	23	37	50.22321	73.9115	-21.31769	1	76.92434	-16.08872	7.576389E-006	-0.0002353	10	0.0077816	0.5985686	-327.5937
	24	39	38.42213	76.94965	-23.7315	1	80.52597	-17.13992	-1.46235E-005	-0.0002581	10	0.0074007	0.5959342	-327.5937
	25	41	31.25	79.4899	-25.83212	1	83.58195	-18.0028	2.091437E-005	-0.0002203	10	0.0070908	0.5926545	-327.5937
	26	42	24.93351	82.57821	-28.42003	1	87.33189	-18.99136	1.569996E-005	-0.0002478	10	0.006668	0.582325	-327.5937
	27	44	19.86229	86.06161	-31.38221	1	91.60483	-20.03429	-0.0001738	-0.0001896	10	0.0070175	0.6428338	-327.5937
	28	45	15.625	90.17333	-34.97111	1	96.7172	-21.19734	-0.0001529	-0.0001835	10	0.0062037	0.5999994	-327.5937
	29	46	12.40079	94.29134	-38.7327	1	101.9366	-22.33172	-0.000146	-0.0001925	10	0.0058859	0.5999911	-327.5937
	30	48	9.93114	98.4666	-42.69938	1	107.3262	-23.44364	-0.0001093	-0.0001901	10	0.0055905	0.6000099	-327.5937
	31	50	7.944915	103.2919	-47.24136	1	113.5824	-24.57737	-0.0001072	-0.0001919	10	0.0052826	0.6000126	-327.5937
	32	51	6.317385	108.7077	-52.40605	1	120.6804	-25.7379	-8.579667E-005	-0.0001999	10	0.0049718	0.5999953	-327.5937
	33	54	5.008013	114.9243	-58.28662	1	128.8601	-26.89293	-8.073034E-005	-0.0001934	10	0.0046562	0.6000025	-327.5937
	34	56	3.945707	122.0622	-64.96131	1	138.272	-28.02184	-7.480693E-005	-0.0001942	10	0.0043393	0.6000079	-327.5937
	35	58	3.158693	129.3922	-71.73447	1	147.9465	-29.0038	-6.548718E-005	-0.0001942	10	0.0040555	0.5999979	-327.5937
	36	61	2.504006	137.9103	-79.02371	1	158.9465	-29.81306	-6.264759E-005	-0.0001796	10	0.0036572	0.5825072	-327.5937
	37	65	1.998082	145.9189	-86.87669	1	169.8231	-30.76857	-5.352041E-005	-0.0001743	10	0.003592	0.6106923	-327.5937
	38	69	1.584686	154.63	-96.2965	1	182.1633	-31.91275	-3.978226E-005	-0.0001809	10	0.0033158	0.6043863	-327.5937
	39	74	1.266892	162.7046	-106.741	1	194.593	-33.26653	-2.797756E-005	-0.0001759	10	0.0030908	0.6016492	-327.5937
	40	79	0.999041	171.0843	-120.225	1	209.1026	-35.09661	-2.724391E-005	-0.0001817	10	0.002872	0.6006574	-327.5937
	41	85	0.7923428	178.7067	-136.3522	1	224.7844	-37.34343	-1.845216E-005	-0.0001816	10	0.0026699	0.6002301	-327.5937
	42	91	0.6334459	186.0738	-155.7033	1	242.6252	-39.922	-1.248385E-005	-0.0001822	10	0.0024731	0.6000795	-327.5937
	43	99	0.5040323	194.0357	-180.2347	1	264.829	-42.88821	-8.435037E-006	-0.0001811	10	0.0022656	0.6000351	-327.5937
	44	109	0.400641	202.9129	-210.8125	1	292.6013	-46.09387	-5.77946E-006	-0.0001883	10	0.0020506	0.6000178	-327.5937
	45	120	0.316723	213.3825	-249.6753	1	328.4355	-49.48147	-3.457519E-006	-0.0001868	10	0.0018269	0.600016	-327.5937
	46	134	0.2520161	225.2082	-296.3484	1	372.2111	-52.7672	-1.996837E-006	-0.0001877	9	0.0016117	0.599906	-327.5937
	47	152	0.2003205	239.2216	-354.2723	1	427.4761	-55.97089	-1.211892E-006	-0.0001903	9	0.0014037	0.6000372	-327.5937